{
    "Tool_Name": "ThreeDOFTool",
    "FBGSensor_Num_Peaks": 9,
    "FBGSensor_Num_Samples": 200,
    "Distance_Sclera_FBGs": 5.8891,
    "Wavelength_Indices_Tip": [0, 3, 6],
    "Base_Wavelengths": [0, 0, 0, 0, 0, 0, 0, 0, 0],
    "Calibration_Matrix_Tip": [
        [ 83.408,   -40.409,    -42.999],
        [-3.979,    -78.642,     82.622]
    ],
    "Calibration_Polynomial_Sclera": {
        "Coefficients": [
            979.935,   -756.269,   781.146,    -531.759,   565.137,    -648.576,
            -636.355,  -200.436,   318.539,    -1523.589,  1077.449,   -1452.483,
            179.119,   318.291,    482.947,    2466.363,   -1064.508,   109.167,
            223.724,   -734.733,   1104.892,   2694.819,   -778.481,   -372.926,
            -5352.797, 1750.789,   -277.877,   -1746.760,  1469.752,   -1396.756,
            453.903,   -230.769,   639.147,    1659.438,   -514.254,   -57.657,
            1303.846,  -812.544,   1609.433,   1572.930,   -1463.445,  -207.422,
            -4675.875, 2117.272,   -463.129,   1075.542,   527.722,    -1348.378,
            -4967.507, 1378.036,   469.850,    6912.099,  -2256.329,   299.522,
            784.741,   -1155.016,  978.956,    1084.247,   26.288,     -401.380,
            -2639.004, 596.018,    -75.709,    486.916,    602.663,    -1065.209,
            -3263.091, 954.209,    234.115,    4340.340,   -1305.374,  236.532,
            -1905.475, -725.552,   925.445,    3991.890,   -13.605,    -773.146,
            -3381.494, 754.445,    46.668
        ],
        "Bounds_Min": [-0.09921,	-0.09303,	-0.09306,	-0.06027],
        "Bounds_Max": [0.10029,	0.09822,	0.08648,	0.01175]
    }
}